Intensity	moverz	RT_minutes
155737.7344	91.05447	0.592
882005.75	94.06543	1.85
637984.75	96.04469	0.537
515837.5938	101.10767	0.428
385897.5	110.0604	2.035
476525.9063	112.8961	2.315
152664.9531	114.05534	3.882
338466.0313	120.10232	2.154
574322.375	121.04004	0.951
107913.1875	122.07171	2.114
653765.5625	124.08734	3.265
114456.6797	126.10303	3.425
1794146.875	135.00342	2.489
182307.5781	140.08232	0.495
450782.5	142.0867	1.279
285081.7813	143.08212	3.88
441295.2813	146.01939	2.438
822708.625	154.05042	0.489
10975257	156.07735	3.244
5661980	157.97522	0.243
7582330	160.06108	3.888
196013.9844	160.09744	2.849
361375.75	165.05524	2.353
3334098.5	170.09306	3.261
585417.75	170.12943	0.243
21690486	172.98041	2.446
152892.1875	177.06656	0.487
4458856.5	194.11832	2.658
207836.4688	199.10844	0.629
148517.4375	202.12344	0.987
256397.75	208.13405	2.874
205446.6406	219.07724	0.623
167889.2188	221.99164	2.908
953299.75	224.12904	2.734
1064788.125	227.11487	3.282
1992845.875	229.99992	0.699
786285.6875	230.01088	0.7
830014.125	230.15472	0.568
197635.9375	230.99994	0.695
494105.125	235.11983	0.622
2715681.25	240.1028	1.549
6943712.5	240.96811	2.451
639823.75	244.08014	2.103
14072504	247.14497	1.432
775306.625	247.18134	0.567
1344290.625	258.0307	3.772
2180553.25	271.02655	0.701
125576.6406	271.03769	0.701
563388.1875	272.01862	3.226
147588.3125	272.02988	0.711
201297.875	280.17068	0.602
1338481.511	285.04816	1.848
107214.7656	288.0379	0.71
2245797.25	290.03247	0.699
167196.625	292.10406	3.308
136649344	293.09918	3.888
243714.9375	297.98737	4.161
1885811.125	298.34805	0.371
16003467	302.02072	3.775
601039.625	302.19745	1.662
265137.625	305.01923	2.586
150291.6094	325.01563	0.595
9865599	336.98749	2.442
1310923.625	342.04562	1.849
118984016	346.01077	3.775
17902810	347.01581	3.841
2159925	348.01517	3.755
265120.6563	348.89075	2.311
277248	351.03485	3.272
734527.75	353.02835	3.898
1053615.5	362.90649	2.315
3748753.75	378.11337	0.305
313603.8438	380.25751	2.024
6412976	389.16422	0.88
10442715	389.16428	0.525
148501.875	391.1796	0.561
235468.3438	392.90811	2.344
4643786.428	404.97519	2.442
137745.0469	425.03821	3.75
1792588.625	446.05548	1.847
469813.125	450.04962	1.849
820145.0625	456.20361	2.143
262157.5938	458.27417	3.445
1681328.625	470.21933	2.087
232309.25	474.03271	2.453
265181.5938	477.1528	3.887
1193766	488.04895	2.449
362689	490.20911	1.622
1056745.375	494.36255	1.438
928593728	496.34143	1.523
494554.9375	498.86096	2.309
43741492	500.99435	2.444
95126968	515.00977	2.446
4748512	518.32538	1.517
193381056	520.34186	1.496
702195.5	538.35236	1.578
247652.8281	544.8457	2.309
488367.1563	558.86127	2.31
147348.6094	582.82275	2.337
24939386	582.99774	2.442
428440.25	596.8385	2.335
42930252	597.01349	2.444
140504.0313	604.27271	1.438
122819.4531	608.39478	1.377
316317.25	619.4931	0.536
661187.25	620.39478	1.339
364097.5938	622.30709	1.515
294152.875	642.82312	2.311
341883.0313	645.49884	1.424
18638928	665.00116	2.452
26934531.07	679.01636	2.447
246782.1563	693.3327	1.473
26663374	701.56165	1.418
249716.5781	713.99695	3.919
247146.5469	717.06378	1.849
251135.8125	723.54449	1.387
5140864	732.98865	2.45
3040480.25	742.57745	1.193
2749441.5	742.5777	1.111
15817523	747.00452	2.452
9436324	756.55701	1.229
242808672	758.5722	1.231
859256.75	768.55634	1.131
3312843.75	772.58783	1.225
130171.2266	779.60919	1.381
6363958	780.5567	1.198
8963764	780.55713	1.114
1245070.625	780.99786	2.455
116608816	782.57227	1.112
1518760.75	788.00604	2.45
6529189	788.61041	1.136
658424.1875	790.57776	1.059
524199.3125	794.55157	2.111
1629622.125	796.58765	1.096
1652537	796.58777	1.188
739219.3125	797.5907	1.193
116937.0547	799.63464	1.419
1244910.75	800.9765	2.437
1052784.625	804.55609	1.105
345191.5	805.62494	1.376
198975.5469	806.80896	2.331
25900312	808.58704	1.189
8712035	812.61725	1.112
3425162.5	814.56207	1.285
861087.5	818.60858	1.056
896160.4375	819.61176	1.062
279453.6563	820.5509	1.17
462438.9375	828.54163	1.272
1582536.625	830.55719	1.278
926310.0625	830.5722	1.064
7802431	834.60309	1.071
148762.0469	838.77661	2.322
981443	842.59308	1.207
176718.0625	848.04535	3.759
1092528.776	850.59845	1.233
206072.8594	852.54144	1.284
162775.5469	852.79218	2.327
434930.5313	872.56726	1.301
5684831.5	896.99536	2.442
115798.8906	898.58258	1.284
12287251	911.01093	2.443
9844738	925.02667	2.452
552094.6875	930.98907	2.454
130607.9844	975.53119	1.062
4837133.5	978.99878	2.443
352987040	268.99948	2.444
179695184	186.99609	2.448
125268936	104.99264	2.447
132775208	104.10728	2.026
111992792	433.00635	2.445
98066368	782.57202	1.194
86562912	254.98384	2.442
37552680	806.57227	1.09
57231848	809.59113	1.186
45471268	351.00302	2.446
36781836	418.99084	2.444
7570790.5	344.01575	3.809
7566554.5	199.00198	0.24
8102846	347.0174	3.961
20222102	761.01978	2.453
16690713	843.02307	2.444
15737492	829.00787	2.442
6496978.5	793.59631	1.065
12609150	510.35748	1.493
3934158	157.97523	0.287
6386336.5	766.57721	1.1
4486780	165.05154	3.748
6443393	170.09305	3.428
2548075	691.01422	3.754
8174059	486.97858	2.441
9578206	508.37766	1.526
4906837	202.181	0.8
2045291.75	708.04095	3.762
8131892.5	347.01837	3.78
5873656	568.98175	2.448
5893181	814.99213	2.446
4228577	248.01048	0.703
4487026.5	189.0878	3.889
1059882.875	139.98836	0.24
2579388	116.07096	3.804
3640429.5	315.08121	3.879
1327004.875	256.30084	1.01
3779355.75	338.0517	1.848
2533681	912.01392	2.449
1336824.875	856.57239	1.271
683809.4375	530.79034	3.731
2064816.375	508.34174	1.503
1927875.5	336.05472	1.849
1759726.625	770.60754	1.2
2171974.5	299.01035	2.485
1792315.625	160.06097	3.685
2032001.625	877.01709	2.452
1069544.875	189.1606	4.164
1389333.625	850.59839	1.151
1602042.25	444.0585	1.849
315156.0313	503.01675	3.978
727846.375	797.62775	1.085
2081480.125	218.9442	2.345
743250.4375	392.16461	0.519
1531767.25	534.32129	1.584
631232	167.04915	3.715
1367493	447.02533	3.903
281694.5	165.05519	2.639
1229391.375	478.10141	3.807
1489220.625	727.57751	1.401
803723	812.54669	1.273
1270306	391.05508	1.848
576524.125	188.17657	4.109
1237416.375	153.06642	0.492
658383	854.55682	1.281
1138988	346.02136	3.594
815849.1875	842.59308	1.114
1029098.813	606.33307	2.903
440495.1875	349.00928	2.592
502544.7813	156.11371	1.622
389520.5313	689.01855	3.773
1001309.375	414.89917	2.342
511339.3125	233.99428	0.702
980040.3125	534.29761	1.53
340681.7813	146.08162	2.66
336354.7188	533.88696	2.658
818324.3125	594.37903	1.378
557934.4375	196.18167	0.223
430216.875	144.033	3.744
486205.2813	564.36108	0.419
671081.5	748.5304	1.099
1131292.375	855.99359	2.439
190488.0469	485.0061	3.963
1003412.188	768.5564	1.219
785613.125	159.1498	1.733
421038.75	184.04623	3.742
483626.7813	160.03517	2.559
720341.8125	429.02353	3.893
638367.875	102.05533	3.89
336233.5625	780.5929	1.037
745930.5	770.57159	1.225
837954.3125	298.14493	0.573
241477.3906	461.98993	3.975
663958.0625	754.54095	1.214
496711.1875	840.62561	1.084
347799.625	846.55225	1.266
949229.25	754.01141	2.451
611132.5625	520.33496	0.723
670486.0625	177.04419	1.849
676813.0625	610.85382	2.332
1000551.563	312.21811	1.535
448590.4375	287.12231	0.631
546777.9375	724.53027	1.11
268295.0625	882.58887	1.287
693091.8125	884.02472	2.452
727587.1875	802.02185	2.445
545729.8125	264.92883	2.307
306180.3438	764.56256	1.084
273023.5313	692.02148	3.932
490000.6875	392.1647	0.883
528869.25	389.05804	1.847
512889.625	230.15474	0.91
497633.4122	713.06958	1.847
387159.75	150.12819	0.584
644415.6875	794.55103	2.022
272060.1563	823.64252	1.067
198060.4063	816.59253	1.052
487303.7188	248.02142	0.705
346176.9375	469.02823	3.75
411291.9375	282.28024	0.751
453486	247.18134	0.914
205110.1719	552.40491	1.459
405997.1563	300.29089	0.751
454277.5313	499.05905	1.848
427544.625	711.07257	1.847
236634.3594	284.19806	2.866
337295.4375	168.94954	2.306
475096.0938	656.83832	2.321
111443.4666	154.1232	1.895
394793.1875	837.1203	3.802
439410.25	274.20236	1.575
310089.9688	236.16542	0.965
342183.6875	316.12256	0.594
422025.8125	807.64032	1.378
378358.6563	235.11978	0.712
187502.2344	160.0974	0.621
337169.8125	497.06201	1.848
285832.6563	792.55646	1.095
265823.0625	487.03925	3.742
285964.9063	280.19183	0.797
196264.9063	968.55872	1.081
201648.0938	310.11472	3.322
192242.5625	608.3877	0.515
406023.3125	518.32611	1.587
129077.9375	493.0647	3.637
292253.6875	154.09801	0.844
344842.0313	825.651	1.411
322060.1563	566.31085	1.421
251046.5156	822.60284	1.09
260577.625	564.36115	0.776
215069.875	836.54706	1.279
166026.0313	951.53186	1.06
291563.2813	848.58282	1.229
139757.7188	810.51025	3.282
236705.2344	580.36322	1.401
343242.7188	526.78577	3.733
330435.6875	883.9826	2.434
295963.0938	400.88342	2.342
131867	289.98178	3.56
221952.2656	257.10052	2.19
256154.125	187.1449	2.267
194989.2813	774.547	1.084
199310.6406	597.237	1.402
221110	858.49744	1.23
212949.4219	235.06177	2.133
336191.7813	167.09334	0.479
221654.6094	865.62915	1.079
274932.2813	200.03682	2.205
178212.4063	370.05383	3.117
143981.0625	526.41235	0.997
255545.6875	425.93738	1.031
152560.2188	202.08707	0.953
261780.75	708.8316	2.335
223145.8125	247.02649	0.695
205903.7031	258.28009	0.696
168218.9688	214.14468	1.93
193852.6406	246.01599	0.702
133227.4531	369.22623	4.358
203928.2031	280.19189	0.977
136389.8438	828.55511	1.087
133249.8594	357.25137	4.31
277344	792.79279	2.325
105801.0469	262.15994	0.61
252199.75	460.88388	2.314
202920.7188	874.07666	1.85
206922.6406	181.03825	1.848
130480.2578	278.17612	0.521
125948.7109	300.16052	0.627
207434.7031	208.134	1.411
117561.8047	230.17595	0.696
183105.3125	413.03693	3.912
176232.1094	872.07935	1.845
156286.7813	211.00508	0.704
210321.7813	415.07001	3.69
136506.3906	134.11803	1.575
162778.1719	174.10324	1.382
157775.2031	503.05316	1.85
118288.7188	992.55872	1.054
192959.8594	754.8161	2.326
127569.0703	416.97049	0.7
119472.2188	868.65546	1.18
122033.2656	498.38104	1.004
125110.3672	272.16544	0.762
124671.2344	880.57275	1.289
175775.8906	890.77063	2.33
141589	284.12915	0.65
112737.6641	738.52576	2.91
115717.2813	608.38782	0.847
114496.5313	269.03204	0.693
145377.0938	273.16077	2.025
121564.1016	873.07794	1.842
136342.0625	213.12416	0.525
122563.5938	213.12421	0.588
133059.2344	257.98364	1.914
135289.3281	550.06561	1.846
116469.8047	228.00543	0.694
115107.2344	232.04463	1.848
110084.1797	606.06409	1.846
104019.1172	280.17078	0.943
123789.875	181.09781	0.595
101102.9375	819.07617	1.846
105915.6172	492.34659	1.462
5420477.5	650.98535	2.452
2528911.25	832.58832	1.083
1694104.625	225.20822	2.281
2048799.5	124.0248	3.74
1872910.75	660.07214	3.766
714377.3125	147.07695	3.367
3482194.25	317.06625	3.768
2553798.6	166.95142	2.306
1655366.25	175.98595	0.297
3026614.25	184.07396	1.457
766071.875	350.017	1.89
2167239.5	838.56171	1.279
1008488.813	348.07196	3.116
2089519.125	170.09308	3.522
2485302	166.08684	2.018